File: Dane/Gr04/Grupa03/Raw/Magnetyt_komercyjny.xy
! XYN file created by WinPLOTR
! Initial file:   C:\!Dane\XRD_Lukasz\2021\LFCS\Grupa03\Raw\Magnetyt_raw.xrdml
! Initial format:  13
! WAVE (A):      1.54060     1.54060     1.00000
! X_data : 2 Theta (deg.)
! Y_data : Intensity (arb. units)
!--------------------------------------------------------------------------------
!            X_1 Magnetyt_raw.xr
        10.01671       203
        10.08356       210
        10.15040       199
        10.21725       206
        10.28409       199
        10.35094       190
        10.41778       199
        10.48463       182
        10.55147       186
        10.61832       186
        10.68516       176
        10.75201       186
        10.81885       199
        10.88570       162
        10.95254       163
        11.01939       159
        11.08623       184
        11.15308       188
        11.21992       169
        11.28677       148
        11.35361       184
        11.42046       178
        11.48730       155
        11.55415       130
        11.62099       170
        11.68784       153
        11.75468       146
        11.82153       161
        11.88837       146
        11.95522       148
        12.02206       161
        12.08891       172
        12.15575       142
        12.22260       140
        12.28944       153
        12.35629       144
        12.42313       132
        12.48998       115
        12.55682       124
        12.62367       138
        12.69051       151
        12.75736       144
        12.82420       124
        12.89105       119
        12.95789       115
        13.02474       133
        13.09158       128
        13.15843       132
        13.22528       110
        13.29212       143
        13.35896       127
        13.42581       123
        13.49265       112
        13.55950       115
        13.62635       123
        13.69319       119
        13.76004       114
        13.82688       126
        13.89373       136
        13.96057       101
        14.02742       129
        14.09426       117
        14.16111       106
        14.22795       109
        14.29480       119
        14.36164       122
        14.42849       103
        14.49533       111
        14.56218       112
        14.62902        87.00000
        14.69587       118
        14.76271       154
        14.82956        90.00000
        14.89640       110
        14.96325       115
        15.03009       137
        15.09694       115
        15.16378       109
        15.23063       113
        15.29747        95.00000
        15.36432       112
        15.43116       130
        15.49801       117
        15.56485        99.00000
        15.63170        91.00000
        15.69854       104
        15.76539        91.00000
        15.83223       111
        15.89908        92.00000
        15.96592        85.00000
        16.03277        79.00000
        16.09961        92.00000
        16.16646        75.00000
        16.23330       118
        16.30015       100
        16.36699        99.00000
        16.43384        91.00000
        16.50068        88.00000
        16.56753        99.00000
        16.63437        88.00000
        16.70122        94.00000
        16.76806        84.00000
        16.83491        83.00000
        16.90175        97.00000
        16.96860        79.00000
        17.03544       102
        17.10229        82.00000
        17.16913       100
        17.23598        96.00000
        17.30282        73.00000
        17.36967        94.00000
        17.43651       105
        17.50336        85.00000
        17.57020       111
        17.63705       100
        17.70390        83.00000
        17.77074        92.00000
        17.83759        87.00000
        17.90443        77.00000
        17.97128        90.00000
        18.03812       100
        18.10497        96.00000
        18.17181       108
        18.23866       170
        18.30550       222
        18.37234       132
        18.43919        90.00000
        18.50603        91.00000
        18.57288        84.00000
        18.63973        74.00000
        18.70657        77.00000
        18.77342        68.00000
        18.84026        87.00000
        18.90711        76.00000
        18.97395        92.00000
        19.04080        73.00000
        19.10764        73.00000
        19.17449        79.00000
        19.24133        88.00000
        19.30818        65.00000
        19.37502        86.00000
        19.44187        73.00000
        19.50871        64.00000
        19.57556        71.00000
        19.64240        72.00000
        19.70925        60.00000
        19.77609        76.00000
        19.84294        60.00000
        19.90978        90.00000
        19.97663        65.00000
        20.04347        65.00000
        20.11032        68.00000
        20.17716        64.00000
        20.24401        72.00000
        20.31085        57.00000
        20.37770        59.00000
        20.44454        47.00000
        20.51139        76.00000
        20.57823        52.00000
        20.64508        65.00000
        20.71192        59.00000
        20.77877        59.00000
        20.84561        58.00000
        20.91246        48.00000
        20.97930        76.00000
        21.04615        47.00000
        21.11299        52.00000
        21.17984        61.00000
        21.24668        64.00000
        21.31353        65.00000
        21.38037        71.00000
        21.44722        58.00000
        21.51406        62.00000
        21.58091        63.00000
        21.64775        61.00000
        21.71460        54.00000
        21.78144        50.00000
        21.84829        64.00000
        21.91513        45.00000
        21.98198        54.00000
        22.04882        47.00000
        22.11567        49.00000
        22.18251        50.00000
        22.24936        52.00000
        22.31620        55.00000
        22.38305        55.00000
        22.44990        50.00000
        22.51674        48.00000
        22.58359        61.00000
        22.65043        59.00000
        22.71728        55.00000
        22.78412        46.00000
        22.85097        56.00000
        22.91781        50.00000
        22.98466        51.00000
        23.05150        39.00000
        23.11835        37.00000
        23.18519        51.00000
        23.25204        50.00000
        23.31888        52.00000
        23.38573        55.00000
        23.45257        52.00000
        23.51942        36.00000
        23.58626        59.00000
        23.65311        43.00000
        23.71995        49.00000
        23.78680        41.00000
        23.85364        42.00000
        23.92049        52.00000
        23.98733        39.00000
        24.05418        42.00000
        24.12102        44.00000
        24.18787        44.00000
        24.25471        50.00000
        24.32156        42.00000
        24.38840        45.00000
        24.45525        54.00000
        24.52209        49.00000
        24.58894        48.00000
        24.65578        47.00000
        24.72263        50.00000
        24.78947        52.00000
        24.85632        44.00000
        24.92316        42.00000
        24.99001        48.00000
        25.05685        46.00000
        25.12370        37.00000
        25.19054        38.00000
        25.25739        55.00000
        25.32423        43.00000
        25.39108        45.00000
        25.45792        43.00000
        25.52477        38.00000
        25.59161        43.00000
        25.65846        41.00000
        25.72530        32.00000
        25.79215        35.00000
        25.85899        47.00000
        25.92584        45.00000
        25.99268        35.00000
        26.05953        42.00000
        26.12637        45.00000
        26.19322        44.00000
        26.26007        39.00000
        26.32691        57.00000
        26.39375        39.00000
        26.46060        47.00000
        26.52744        32.00000
        26.59429        41.00000
        26.66113        35.00000
        26.72798        44.00000
        26.79482        34.00000
        26.86167        44.00000
        26.92851        38.00000
        26.99536        43.00000
        27.06220        32.00000
        27.12905        47.00000
        27.19590        37.00000
        27.26274        39.00000
        27.32959        46.00000
        27.39643        45.00000
        27.46328        44.00000
        27.53012        32.00000
        27.59697        36.00000
        27.66381        41.00000
        27.73066        42.00000
        27.79750        42.00000
        27.86435        46.00000
        27.93119        38.00000
        27.99804        51.00000
        28.06488        37.00000
        28.13173        39.00000
        28.19857        36.00000
        28.26542        38.00000
        28.33226        28.00000
        28.39911        34.00000
        28.46595        36.00000
        28.53280        44.00000
        28.59964        47.00000
        28.66649        38.00000
        28.73333        65.00000
        28.80018        57.00000
        28.86702        46.00000
        28.93387        36.00000
        29.00071        46.00000
        29.06756        48.00000
        29.13440        31.00000
        29.20125        35.00000
        29.26809        47.00000
        29.33494        35.00000
        29.40178        45.00000
        29.46863        41.00000
        29.53547        32.00000
        29.60232        34.00000
        29.66916        37.00000
        29.73601        37.00000
        29.80285        39.00000
        29.86970        56.00000
        29.93654       102
        30.00339       288
        30.07023       658
        30.13708       460
        30.20392       222
        30.27077        77.00000
        30.33761        52.00000
        30.40446        64.00000
        30.47130        32.00000
        30.53815        32.00000
        30.60499        34.00000
        30.67184        45.00000
        30.73868        43.00000
        30.80553        31.00000
        30.87237        28.00000
        30.93922        38.00000
        31.00607        24.00000
        31.07291        29.00000
        31.13976        28.00000
        31.20660        34.00000
        31.27345        35.00000
        31.34029        21.00000
        31.40714        31.00000
        31.47398        30.00000
        31.54082        31.00000
        31.60767        27.00000
        31.67451        33.00000
        31.74136        36.00000
        31.80820        18.00000
        31.87505        42.00000
        31.94190        38.00000
        32.00874        23.00000
        32.07558        30.00000
        32.14243        30.00000
        32.20927        27.00000
        32.27612        35.00000
        32.34296        30.00000
        32.40981        29.00000
        32.47666        23.00000
        32.54350        30.00000
        32.61035        24.00000
        32.67719        34.00000
        32.74404        24.00000
        32.81088        23.00000
        32.87773        20.00000
        32.94457        23.00000
        33.01142        32.00000
        33.07826        32.00000
        33.14511        55.00000
        33.21195        32.00000
        33.27880        45.00000
        33.34564        32.00000
        33.41249        41.00000
        33.47933        38.00000
        33.54618        38.00000
        33.61302        30.00000
        33.67987        31.00000
        33.74671        43.00000
        33.81356        65.00000
        33.88040       114
        33.94725        74.00000
        34.01409        37.00000
        34.08094        39.00000
        34.14778        55.00000
        34.21463        30.00000
        34.28148        44.00000
        34.34832        25.00000
        34.41516        27.00000
        34.48201        41.00000
        34.54885        28.00000
        34.61570        28.00000
        34.68254        34.00000
        34.74939        45.00000
        34.81623        28.00000
        34.88308        37.00000
        34.94992        39.00000
        35.01677        38.00000
        35.08361        50.00000
        35.15046        66.00000
        35.21730       110
        35.28415       232
        35.35099       780
        35.41784      1880
        35.48468      1360
        35.55153       736
        35.61837       278
        35.68522       116
        35.75206       105
        35.81891        75.00000
        35.88575        46.00000
        35.95260        43.00000
        36.01944        38.00000
        36.08629        27.00000
        36.15313        47.00000
        36.21998        24.00000
        36.28683        24.00000
        36.35367        32.00000
        36.42052        24.00000
        36.48736        25.00000
        36.55421        38.00000
        36.62105        25.00000
        36.68790        30.00000
        36.75474        20.00000
        36.82159        29.00000
        36.88843        30.00000
        36.95528        42.00000
        37.02212       159
        37.08897       137
        37.15581       121
        37.22266        49.00000
        37.28950        28.00000
        37.35635        28.00000
        37.42319        24.00000
        37.49004        24.00000
        37.55688        24.00000
        37.62373        32.00000
        37.69057        23.00000
        37.75742        18.00000
        37.82426        27.00000
        37.89111        24.00000
        37.95795        22.00000
        38.02480        21.00000
        38.09164        31.00000
        38.15849        11.00000
        38.22533        20.00000
        38.29218        17.00000
        38.35902        17.00000
        38.42587        23.00000
        38.49271        16.00000
        38.55956        17.00000
        38.62640        29.00000
        38.69325        18.00000
        38.76009        34.00000
        38.82694        23.00000
        38.89378        28.00000
        38.96063        17.00000
        39.02747        15.00000
        39.09432        17.00000
        39.16116        17.00000
        39.22801        23.00000
        39.29485        14.00000
        39.36170        17.00000
        39.42854        20.00000
        39.49539        20.00000
        39.56223        24.00000
        39.62908        18.00000
        39.69592        18.00000
        39.76277        12.00000
        39.82961        16.00000
        39.89646        21.00000
        39.96330        18.00000
        40.03015        22.00000
        40.09700        25.00000
        40.16384        15.00000
        40.23069        11.00000
        40.29753        16.00000
        40.36438        27.00000
        40.43122        20.00000
        40.49807        19.00000
        40.56491        14.00000
        40.63176        10.00000
        40.69860        16.00000
        40.76545        20.00000
        40.83229        28.00000
        40.89914        16.00000
        40.96598        22.00000
        41.03283        23.00000
        41.09967        30.00000
        41.16652        48.00000
        41.23336        29.00000
        41.30021        20.00000
        41.36705        25.00000
        41.43390        23.00000
        41.50074        29.00000
        41.56758        30.00000
        41.63443        24.00000
        41.70127        22.00000
        41.76812        21.00000
        41.83496        19.00000
        41.90181        21.00000
        41.96866        17.00000
        42.03550        20.00000
        42.10235        23.00000
        42.16919        19.00000
        42.23604        17.00000
        42.30288        12.00000
        42.36973        19.00000
        42.43657        16.00000
        42.50342        22.00000
        42.57026        10.00000
        42.63711        19.00000
        42.70395        28.00000
        42.77080        41.00000
        42.83764        37.00000
        42.90449        74.00000
        42.97133       156
        43.03818       365
        43.10502       303
        43.17187       252
        43.23871       108
        43.30556        64.00000
        43.37240        37.00000
        43.43925        24.00000
        43.50609        21.00000
        43.57294        20.00000
        43.63978        29.00000
        43.70663        25.00000
        43.77348        23.00000
        43.84032        21.00000
        43.90717        18.00000
        43.97401        24.00000
        44.04086        16.00000
        44.10770        21.00000
        44.17455        20.00000
        44.24139        19.00000
        44.30824        18.00000
        44.37508        23.00000
        44.44193        18.00000
        44.50877        30.00000
        44.57561        19.00000
        44.64246        19.00000
        44.70930        17.00000
        44.77615        16.00000
        44.84299        22.00000
        44.90984        11.00000
        44.97668        18.00000
        45.04353        12.00000
        45.11037        16.00000
        45.17722        20.00000
        45.24406        16.00000
        45.31091        17.00000
        45.37775        12.00000
        45.44460        19.00000
        45.51144        19.00000
        45.57829        15.00000
        45.64513        15.00000
        45.71198         9.00000
        45.77883        11.00000
        45.84567        15.00000
        45.91252        18.00000
        45.97936        10.00000
        46.04621        10.00000
        46.11305        16.00000
        46.17990         9.00000
        46.24674        21.00000
        46.31359        17.00000
        46.38043        19.00000
        46.44728        14.00000
        46.51412        20.00000
        46.58097        22.00000
        46.64781        20.00000
        46.71466        15.00000
        46.78150        15.00000
        46.84835        12.00000
        46.91519        16.00000
        46.98204        17.00000
        47.04888        27.00000
        47.11573        28.00000
        47.18257        15.00000
        47.24942        29.00000
        47.31626        16.00000
        47.38311        18.00000
        47.44995        15.00000
        47.51680        12.00000
        47.58364        19.00000
        47.65049        17.00000
        47.71733        19.00000
        47.78418        16.00000
        47.85102        14.00000
        47.91787        10.00000
        47.98471        12.00000
        48.05156        17.00000
        48.11840         9.00000
        48.18525        14.00000
        48.25209        15.00000
        48.31894        10.00000
        48.38578        15.00000
        48.45263        12.00000
        48.51947         8.00000
        48.58632        14.00000
        48.65316        16.00000
        48.72001        12.00000
        48.78685        18.00000
        48.85370        14.00000
        48.92054        17.00000
        48.98739        12.00000
        49.05423        15.00000
        49.12108         8.00000
        49.18792        12.00000
        49.25477         9.00000
        49.32161        21.00000
        49.38846        12.00000
        49.45530        17.00000
        49.52215        23.00000
        49.58900         8.00000
        49.65584        12.00000
        49.72269        16.00000
        49.78953        20.00000
        49.85638        18.00000
        49.92322        15.00000
        49.99007        16.00000
        50.05691        14.00000
        50.12376        18.00000
        50.19060        18.00000
        50.25745        23.00000
        50.32429        11.00000
        50.39114        21.00000
        50.45798         7.00000
        50.52483        14.00000
        50.59167        10.00000
        50.65852        15.00000
        50.72536        11.00000
        50.79221        17.00000
        50.85905        12.00000
        50.92590        17.00000
        50.99274        18.00000
        51.05959        23.00000
        51.12643        23.00000
        51.19328         6.00000
        51.26012        11.00000
        51.32697        17.00000
        51.39381        16.00000
        51.46066        17.00000
        51.52750        11.00000
        51.59435        17.00000
        51.66119        18.00000
        51.72804        12.00000
        51.79488        15.00000
        51.86173        17.00000
        51.92857        12.00000
        51.99542         8.00000
        52.06226        16.00000
        52.12911        10.00000
        52.19595        11.00000
        52.26280        17.00000
        52.32964        14.00000
        52.39649        16.00000
        52.46333        10.00000
        52.53018        17.00000
        52.59702        20.00000
        52.66387        18.00000
        52.73071        14.00000
        52.79756        10.00000
        52.86440        22.00000
        52.93125        18.00000
        52.99809         9.00000
        53.06494        25.00000
        53.13178        25.00000
        53.19863        18.00000
        53.26547        39.00000
        53.33232        78.00000
        53.39917       166
        53.46601       109
        53.53286        96.00000
        53.59970        66.00000
        53.66655        34.00000
        53.73339        28.00000
        53.80024        21.00000
        53.86708        21.00000
        53.93393        19.00000
        54.00077        20.00000
        54.06762        14.00000
        54.13446        22.00000
        54.20131        21.00000
        54.26815        29.00000
        54.33500        41.00000
        54.40184        35.00000
        54.46869        23.00000
        54.53553        18.00000
        54.60238        14.00000
        54.66922        28.00000
        54.73606        22.00000
        54.80291        16.00000
        54.86975        16.00000
        54.93660        14.00000
        55.00344        17.00000
        55.07029        11.00000
        55.13713        10.00000
        55.20398        14.00000
        55.27083        21.00000
        55.33767        11.00000
        55.40452        15.00000
        55.47136        10.00000
        55.53821        12.00000
        55.60505        21.00000
        55.67190        19.00000
        55.73874        14.00000
        55.80559        21.00000
        55.87243        23.00000
        55.93928        15.00000
        56.00612        17.00000
        56.07297        21.00000
        56.13981        24.00000
        56.20666        11.00000
        56.27350        15.00000
        56.34035        21.00000
        56.40719        21.00000
        56.47404        28.00000
        56.54088        19.00000
        56.60773        30.00000
        56.67457        45.00000
        56.74142        55.00000
        56.80826       136
        56.87511       369
        56.94195       608
        57.00880       392
        57.07565       372
        57.14249       205
        57.20934       105
        57.27618        56.00000
        57.34303        30.00000
        57.40987        36.00000
        57.47672        30.00000
        57.54356        24.00000
        57.61040        16.00000
        57.67725        24.00000
        57.74409        18.00000
        57.81094        18.00000
        57.87778        21.00000
        57.94463        10.00000
        58.01147        15.00000
        58.07832        10.00000
        58.14516        18.00000
        58.21201        11.00000
        58.27885        14.00000
        58.34570         8.00000
        58.41254        12.00000
        58.47939        14.00000
        58.54623        19.00000
        58.61308        20.00000
        58.67992        24.00000
        58.74677        20.00000
        58.81361        19.00000
        58.88046        15.00000
        58.94730        23.00000
        59.01415        11.00000
        59.08100        14.00000
        59.14784        22.00000
        59.21469        15.00000
        59.28153        17.00000
        59.34838        17.00000
        59.41522        18.00000
        59.48207        22.00000
        59.54891        24.00000
        59.61576        32.00000
        59.68260        43.00000
        59.74945        23.00000
        59.81629        24.00000
        59.88314        20.00000
        59.94998        17.00000
        60.01683        11.00000
        60.08367        19.00000
        60.15052        19.00000
        60.21736        10.00000
        60.28421        20.00000
        60.35105        22.00000
        60.41790        14.00000
        60.48474        14.00000
        60.55159        21.00000
        60.61843        19.00000
        60.68528        25.00000
        60.75212        19.00000
        60.81897        20.00000
        60.88581        21.00000
        60.95266         9.00000
        61.01950        18.00000
        61.08635        11.00000
        61.15319        16.00000
        61.22004        19.00000
        61.28688        16.00000
        61.35373        17.00000
        61.42057        19.00000
        61.48742         9.00000
        61.55426        18.00000
        61.62111        15.00000
        61.68795        17.00000
        61.75480        19.00000
        61.82164        19.00000
        61.88849        20.00000
        61.95533        25.00000
        62.02218        22.00000
        62.08902        32.00000
        62.15587        35.00000
        62.22271        46.00000
        62.28956        49.00000
        62.35640        96.00000
        62.42325       225
        62.49009       597
        62.55694       629
        62.62378       366
        62.69063       422
        62.75747       280
        62.82432        99.00000
        62.89117        69.00000
        62.95801        41.00000
        63.02486        47.00000
        63.09170        31.00000
        63.15855        25.00000
        63.22539        23.00000
        63.29224        21.00000
        63.35908        23.00000
        63.42593        27.00000
        63.49277        22.00000
        63.55962        19.00000
        63.62646        25.00000
        63.69331        12.00000
        63.76015        14.00000
        63.82700        11.00000
        63.89384        16.00000
        63.96069        15.00000
        64.02753        14.00000
        64.09438        10.00000
        64.16122        18.00000
        64.22807        16.00000
        64.29491        17.00000
        64.36176        17.00000
        64.42860        17.00000
        64.49545        12.00000
        64.56229        16.00000
        64.62914        24.00000
        64.69598        18.00000
        64.76283         8.00000
        64.82967        14.00000
        64.89651        14.00000
        64.96336        17.00000
        65.03020        16.00000
        65.09705        17.00000
        65.16389        21.00000
        65.23074        18.00000
        65.29758        15.00000
        65.36443         6.00000
        65.43127        17.00000
        65.49812        12.00000
        65.56496        12.00000
        65.63181        12.00000
        65.69866        17.00000
        65.76550        31.00000
        65.83235        17.00000
        65.89919        22.00000
        65.96604        20.00000
        66.03288        17.00000
        66.09973        14.00000
        66.16657        14.00000
        66.23342        14.00000
        66.30026        21.00000
        66.36711        11.00000
        66.43395        12.00000
        66.50080        10.00000
        66.56764        14.00000
        66.63449        11.00000
        66.70133        11.00000
        66.76818         5.00000
        66.83502         6.00000
        66.90187        16.00000
        66.96871        12.00000
        67.03556        15.00000
        67.10240        16.00000
        67.16925        15.00000
        67.23609        10.00000
        67.30294        12.00000
        67.36978        17.00000
        67.43663        14.00000
        67.50347        18.00000
        67.57032        17.00000
        67.63717        12.00000
        67.70401         5.00000
        67.77086        16.00000
        67.83770        16.00000
        67.90455        12.00000
        67.97139        11.00000
        68.03824        12.00000
        68.10508        12.00000
        68.17193        17.00000
        68.23877        16.00000
        68.30562         8.00000
        68.37246        11.00000
        68.43931         7.00000
        68.50615         9.00000
        68.57300         8.00000
        68.63984        14.00000
        68.70669        10.00000
        68.77353        12.00000
        68.84038        15.00000
        68.90722         9.00000
        68.97407         9.00000
        69.04091         6.00000
        69.10776        15.00000
        69.17460        15.00000
        69.24145        12.00000
        69.30829         6.00000
        69.37514        12.00000
        69.44199         7.00000
        69.50883        17.00000
        69.57568        12.00000
        69.64252        19.00000
        69.70937        10.00000
        69.77621        11.00000
        69.84306        15.00000
        69.90990        19.00000
        69.97675        17.00000
        70.04359        12.00000
        70.11044        15.00000
        70.17728         9.00000
        70.24413        17.00000
        70.31097        15.00000
        70.37782        20.00000
        70.44466        23.00000
        70.51151        10.00000
        70.57835        19.00000
        70.64520        14.00000
        70.71204        14.00000
        70.77888        22.00000
        70.84573        52.00000
        70.91257        72.00000
        70.97942        64.00000
        71.04626        45.00000
        71.11311        54.00000
        71.17995        33.00000
        71.24680        18.00000
        71.31364        24.00000
        71.38049        18.00000
        71.44733        12.00000
        71.51418        15.00000
        71.58102        16.00000
        71.64787        19.00000
        71.71471        15.00000
        71.78156        16.00000
        71.84840        14.00000
        71.91525         6.00000
        71.98209        17.00000
        72.04894        10.00000
        72.11578        15.00000
        72.18263        10.00000
        72.24947        15.00000
        72.31632        10.00000
        72.38316        10.00000
        72.45001        19.00000
        72.51685        15.00000
        72.58370         5.00000
        72.65054        12.00000
        72.71739         9.00000
        72.78423        11.00000
        72.85108        11.00000
        72.91792         9.00000
        72.98477        10.00000
        73.05161        16.00000
        73.11846        12.00000
        73.18530         7.00000
        73.25215        15.00000
        73.31900        15.00000
        73.38584        17.00000
        73.45269        15.00000
        73.51953        20.00000
        73.58638        14.00000
        73.65322        20.00000
        73.72007        22.00000
        73.78691        18.00000
        73.85376        46.00000
        73.92060       109
        73.98745       111
        74.05429        61.00000
        74.12114        63.00000
        74.18798        76.00000
        74.25483        47.00000
        74.32167        33.00000
        74.38852        16.00000
        74.45536        24.00000
        74.52221        16.00000
        74.58905        11.00000
        74.65590        11.00000
        74.72274        17.00000
        74.78959        16.00000
        74.85643        34.00000
        74.92328        65.00000
        74.99012        70.00000
        75.05697        36.00000
        75.12381        46.00000
        75.19066        49.00000
        75.25751        24.00000
        75.32435        22.00000
        75.39120        15.00000
        75.45804        22.00000
        75.52489         7.00000
        75.59173        15.00000
        75.65858        14.00000
        75.72542        15.00000
        75.79227        14.00000
        75.85911         8.00000
        75.92596        16.00000
        75.99280         6.00000
        76.05965        17.00000
        76.12649        10.00000
        76.19334        10.00000
        76.26018        16.00000
        76.32703        17.00000
        76.39387        17.00000
        76.46072        14.00000
        76.52756         9.00000
        76.59441         8.00000
        76.66125        12.00000
        76.72810        16.00000
        76.79494        17.00000
        76.86179        17.00000
        76.92863         8.00000
        76.99548        14.00000
        77.06232        11.00000
        77.12917         9.00000
        77.19601        14.00000
        77.26286        11.00000
        77.32970        18.00000
        77.39655        14.00000
        77.46339        10.00000
        77.53024        12.00000
        77.59708         6.00000
        77.66393        19.00000
        77.73077        11.00000
        77.79762         7.00000
        77.86446        19.00000
        77.93130        16.00000
        77.99815        10.00000
        78.06499        12.00000
        78.13184         7.00000
        78.19868        11.00000
        78.26553        20.00000
        78.33237        10.00000
        78.39922         9.00000
        78.46606        16.00000
        78.53291        14.00000
        78.59975        19.00000
        78.66660        14.00000
        78.73344        27.00000
        78.80029        18.00000
        78.86713        55.00000
        78.93398       115
        79.00083        51.00000
        79.06767        31.00000
        79.13452        65.00000
        79.20136        41.00000
        79.26821        39.00000
        79.33505        14.00000
        79.40190        17.00000
        79.46874         9.00000
        79.53559        16.00000
        79.60243        20.00000
        79.66928         4.00000
        79.73612        14.00000
        79.80297         8.00000
        79.86981         3.00000
        79.93666        10.00000
        80.00350        14.00000
        80.07035         9.00000
        80.13719        20.00000
        80.20404        20.00000
        80.27088        10.00000
        80.33773         9.00000
        80.40457        12.00000
        80.47142        18.00000
        80.53826        11.00000
        80.60511        12.00000
        80.67195         5.00000
        80.73880        11.00000
        80.80564        14.00000
        80.87249         7.00000
        80.93934        14.00000
        81.00618         7.00000
        81.07303        14.00000
        81.13987        15.00000
        81.20672         8.00000
        81.27356         8.00000
        81.34041         6.00000
        81.40725        10.00000
        81.47410         9.00000
        81.54094         8.00000
        81.60779         9.00000
        81.67463         9.00000
        81.74148        17.00000
        81.80832        28.00000
        81.87517        22.00000
        81.94201         6.00000
        82.00886        14.00000
        82.07570        18.00000
        82.14255        18.00000
        82.20939        14.00000
        82.27624        14.00000
        82.34308        15.00000
        82.40993         7.00000
        82.47677        10.00000
        82.54362        16.00000
        82.61046         8.00000
        82.67731        14.00000
        82.74416         8.00000
        82.81100        14.00000
        82.87785        11.00000
        82.94469         8.00000
        83.01154        11.00000
        83.07838         8.00000
        83.14523        17.00000
        83.21207        16.00000
        83.27892        11.00000
        83.34576        16.00000
        83.41261        12.00000
        83.47945         7.00000
        83.54630        17.00000
        83.61314        10.00000
        83.67999         9.00000
        83.74683        16.00000
        83.81367         8.00000
        83.88052        19.00000
        83.94736        10.00000
        84.01421        12.00000
        84.08105        12.00000
        84.14790        17.00000
        84.21474        16.00000
        84.28159         7.00000
        84.34843        15.00000
        84.41528        10.00000
        84.48212         4.00000
        84.54897        11.00000
        84.61581        11.00000
        84.68266        16.00000
        84.74950        10.00000
        84.81635        16.00000
        84.88319        20.00000
        84.95004        17.00000
        85.01688        10.00000
        85.08373        10.00000
        85.15057        11.00000
        85.21742        11.00000
        85.28426        11.00000
        85.35111        12.00000
        85.41795        10.00000
        85.48480         8.00000
        85.55164        11.00000
        85.61849        15.00000
        85.68533        14.00000
        85.75218        16.00000
        85.81902        16.00000
        85.88587        12.00000
        85.95271        10.00000
        86.01956        18.00000
        86.08640        18.00000
        86.15325        16.00000
        86.22009        10.00000
        86.28694         9.00000
        86.35378        12.00000
        86.42063        14.00000
        86.48747        21.00000
        86.55432        19.00000
        86.62117        42.00000
        86.68801        82.00000
        86.75486        51.00000
        86.82170        33.00000
        86.88855        28.00000
        86.95539        47.00000
        87.02224        35.00000
        87.08908        29.00000
        87.15593        19.00000
        87.22277        16.00000
        87.28962        18.00000
        87.35646         7.00000
        87.42331        10.00000
        87.49015        14.00000
        87.55700        16.00000
        87.62384        18.00000
        87.69069         9.00000
        87.75753        18.00000
        87.82438        10.00000
        87.89122        17.00000
        87.95807        17.00000
        88.02491         7.00000
        88.09176        18.00000
        88.15860        18.00000
        88.22545         7.00000
        88.29229        10.00000
        88.35914        12.00000
        88.42598        11.00000
        88.49283        14.00000
        88.55968         9.00000
        88.62652        14.00000
        88.69337        12.00000
        88.76021         9.00000
        88.82706        10.00000
        88.89390        18.00000
        88.96075        14.00000
        89.02759         9.00000
        89.09444        18.00000
        89.16128        17.00000
        89.22813        17.00000
        89.29497        34.00000
        89.36182        35.00000
        89.42866        39.00000
        89.49551       105
        89.56235       212
        89.62920       199
        89.69604        85.00000
        89.76289        81.00000
        89.82973       117
        89.89658       117
        89.96342        52.00000
        90.03027        51.00000
        90.09711        29.00000
        90.16396        25.00000
        90.23080        32.00000
        90.29765        11.00000
        90.36449        17.00000
        90.43134        18.00000
        90.49818         9.00000
        90.56503        12.00000
        90.63187        20.00000
        90.69872        14.00000
        90.76556        12.00000
        90.83241        11.00000
        90.89925        18.00000
        90.96609        11.00000
        91.03294         6.00000
        91.09978        18.00000
        91.16663        16.00000
        91.23347        15.00000
        91.30032        14.00000
        91.36716        12.00000
        91.43401        11.00000
        91.50085        15.00000
        91.56770        12.00000
        91.63454        15.00000
        91.70139        18.00000
        91.76823         6.00000
        91.83508        11.00000
        91.90192        21.00000
        91.96877        15.00000
        92.03561         9.00000
        92.10246         5.00000
        92.16930         8.00000
        92.23615        14.00000
        92.30300        10.00000
        92.36984         6.00000
        92.43669        11.00000
        92.50353        12.00000
        92.57038        11.00000
        92.63722         9.00000
        92.70407        15.00000
        92.77091        14.00000
        92.83776        11.00000
        92.90460         9.00000
        92.97145        18.00000
        93.03829        14.00000
        93.10514        10.00000
        93.17198        15.00000
        93.23883        29.00000
        93.30567         8.00000
        93.37252        11.00000
        93.43936        18.00000
        93.50621        16.00000
        93.57305        14.00000
        93.63990         8.00000
        93.70674        14.00000
        93.77359        15.00000
        93.84043        17.00000
        93.90728        10.00000
        93.97412        12.00000
        94.04097        18.00000
        94.10781        23.00000
        94.17466        25.00000
        94.24151        22.00000
        94.30835        34.00000
        94.37520        42.00000
        94.44204        42.00000
        94.50889        47.00000
        94.57573        33.00000
        94.64258        45.00000
        94.70942        41.00000
        94.77627        27.00000
        94.84311        31.00000
        94.90996        20.00000
        94.97680        14.00000
        95.04365        17.00000
        95.11049         9.00000
        95.17734         7.00000
        95.24418        10.00000
        95.31103        18.00000
        95.37787        10.00000
        95.44472         9.00000
        95.51156         8.00000
        95.57841        15.00000
        95.64525        12.00000
        95.71210        11.00000
        95.77894         6.00000
        95.84579         9.00000
        95.91263        16.00000
        95.97948        12.00000
        96.04632        11.00000
        96.11317         8.00000
        96.18002        18.00000
        96.24686         5.00000
        96.31371        10.00000
        96.38055        12.00000
        96.44740        12.00000
        96.51424        16.00000
        96.58109        10.00000
        96.64793         6.00000
        96.71478        18.00000
        96.78162        11.00000
        96.84846         8.00000
        96.91531        17.00000
        96.98215         7.00000
        97.04900        18.00000
        97.11584         9.00000
        97.18269        12.00000
        97.24953        18.00000
        97.31638         6.00000
        97.38322        12.00000
        97.45007        15.00000
        97.51691        10.00000
        97.58376        20.00000
        97.65060         8.00000
        97.71745        12.00000
        97.78429        22.00000
        97.85114        16.00000
        97.91798         5.00000
        97.98483         6.00000
        98.05167         7.00000
        98.11852         9.00000
        98.18536        11.00000
        98.25221         3.00000
        98.31905        11.00000
        98.38590         5.00000
        98.45274        14.00000
        98.51959        11.00000
        98.58643        14.00000
        98.65328        16.00000
        98.72012         8.00000
        98.78697         7.00000
        98.85381        15.00000
        98.92066        22.00000
        98.98750        15.00000
        99.05435        12.00000
        99.12119        30.00000
        99.18804        12.00000
        99.25488         8.00000
        99.32173        15.00000
        99.38857        17.00000
        99.45542        11.00000
        99.52226        17.00000
        99.58911        11.00000
        99.65595        21.00000
        99.72280        17.00000
        99.78964        10.00000
        99.85649        12.00000
        99.92334        18.00000
        99.99018        15.00000